{
    "id": "4f2f412e-69a2-423d-b90a-cb23edd0460a",
    "meta": {
        "profile": [
            "https://profiles.ihe.net/ITI/MHD/StructureDefinition/IHE.MHD.Comprehensive.ProvideBundle"
        ],
        "security": [
            {
                "system": "http://terminology.hl7.org/CodeSystem/v3-ActReason",
                "code": "HTEST",
                "display": "test health data"
            }
        ]
    },
    "type": "transaction",
    "timestamp": "2026-02-12T12:57:45.520994Z",
    "resourceType": "Bundle",
    "entry": [
        {
            "fullUrl": "urn:uuid:9b61b10e-d160-4b0c-abeb-2d5304735d4d",
            "resource": {
                "resourceType": "List",
                "id": "9b61b10e-d160-4b0c-abeb-2d5304735d4d",
                "meta": {
                    "profile": [
                        "https://profiles.ihe.net/ITI/MHD/StructureDefinition/IHE.MHD.Comprehensive.SubmissionSet"
                    ]
                },
                "contained": [
                    {
                        "resourceType": "Practitioner",
                        "id": "8c3203d6-a38d-48b7-afc1-7b81e0f5057b",
                        "identifier": [
                            {
                                "system": "urn:oid:2.16.578.1.12.4.1.4.4",
                                "value": "05898597468"
                            }
                        ],
                        "name": [
                            {
                                "family": "VITS TESTLEGE",
                                "given": [
                                    "GRØNN"
                                ]
                            }
                        ]
                    },
                    {
                        "resourceType": "Organization",
                        "id": "cd8890b5-353d-4bd3-b8d8-473cb8320d76",
                        "identifier": [
                            {
                                "system": "urn:oid:2.16.578.1.12.4.1.4.101",
                                "value": "913393988"
                            }
                        ],
                        "name": "OSLO KOMMUNE HELSEETATEN KOMMUNAL AKUTT DØGNENHET"
                    }
                ],
                "extension": [
                    {
                        "url": "https://profiles.ihe.net/ITI/MHD/StructureDefinition/ihe-designationType",
                        "valueCodeableConcept": {
                            "coding": [
                                {
                                    "system": "urn:oid:2.16.578.1.12.4.1.1.9602",
                                    "code": "A03-2",
                                    "display": "Epikrise"
                                }
                            ]
                        }
                    },
                    {
                        "url": "https://profiles.ihe.net/ITI/MHD/StructureDefinition/ihe-sourceId",
                        "valueIdentifier": {
                            "value": "urn:oid:2.16.578.1.12.4.6.1.1.2.2"
                        }
                    }
                ],
                "identifier": [
                    {
                        "use": "usual",
                        "system": "urn:ietf:rfc:3986",
                        "value": "urn:oid:F6F3031B-F561-4808-A88B-723AA832347B"
                    },
                    {
                        "use": "official",
                        "system": "urn:ietf:rfc:3986",
                        "value": "urn:uuid:4f2f412e-69a2-423d-b90a-cb23edd0460a"
                    }
                ],
                "status": "current",
                "mode": "working",
                "code": {
                    "coding": [
                        {
                            "system": "https://profiles.ihe.net/ITI/MHD/CodeSystem/MHDlistTypes",
                            "code": "submissionset"
                        }
                    ]
                },
                "subject": {
                    "reference": "urn:uuid:07792608-a74f-433a-bf2b-daeda73e0266"
                },
                "date": "2026-02-12T12:57:45.520994Z",
                "source": {
                    "reference": "#8c3203d6-a38d-48b7-afc1-7b81e0f5057b"
                },
                "entry": [
                    {
                        "item": {
                            "reference": "urn:uuid:4f2f412e-69a2-423d-b90a-cb23edd0460a"
                        }
                    }
                ]
            },
            "request": {
                "method": "POST",
                "url": "List"
            }
        },
        {
            "fullUrl": "urn:uuid:07792608-a74f-433a-bf2b-daeda73e0266",
            "resource": {
                "resourceType": "Patient",
                "id": "07792608-a74f-433a-bf2b-daeda73e0266",
                "identifier": [
                    {
                        "system": "urn:oid:2.16.578.1.12.4.1.4.1",
                        "value": "66819001287"
                    }
                ],
                "name": [
                    {
                        "family": "BADENYMFE",
                        "given": [
                            "ROLIG"
                        ]
                    }
                ],
                "gender": "female",
                "birthDate": "1990-01-26"
            },
            "request": {
                "method": "POST",
                "url": "Patient"
            }
        },
        {
            "fullUrl": "urn:uuid:4f2f412e-69a2-423d-b90a-cb23edd0460a",
            "resource": {
                "resourceType": "DocumentReference",
                "id": "4f2f412e-69a2-423d-b90a-cb23edd0460a",
                "meta": {
                    "profile": [
                        "https://profiles.ihe.net/ITI/MHD/StructureDefinition/IHE.MHD.Comprehensive.DocumentReference"
                    ],
                    "security": [
                        {
                            "system": "http://terminology.hl7.org/CodeSystem/v3-ActReason",
                            "code": "HTEST",
                            "display": "test health data"
                        }
                    ]
                },
                "contained": [
                    {
                        "resourceType": "Practitioner",
                        "id": "d8d68526-012d-45a2-b71e-616b7947f7db",
                        "identifier": [
                            {
                                "system": "urn:oid:2.16.578.1.12.4.1.4.1",
                                "value": "05898597468"
                            }
                        ],
                        "name": [
                            {
                                "family": "VITS TESTLEGE",
                                "given": [
                                    "GRØNN"
                                ]
                            }
                        ]
                    },
                    {
                        "resourceType": "PractitionerRole",
                        "id": "b8785d81-030f-4ddf-a4b2-a8ff47cfd7d5",
                        "practitioner": {
                            "reference": "#d8d68526-012d-45a2-b71e-616b7947f7db",
                            "type": "Practitioner"
                        },
                        "organization": {
                            "reference": "#cd8890b5-353d-4bd3-b8d8-473cb8320d76",
                            "type": "Organization"
                        }
                    },
                    {
                        "resourceType": "Organization",
                        "id": "cd8890b5-353d-4bd3-b8d8-473cb8320d76",
                        "identifier": [
                            {
                                "system": "urn:oid:2.16.578.1.12.4.1.4.101",
                                "value": "913393988"
                            }
                        ],
                        "name": "OSLO KOMMUNE HELSEETATEN KOMMUNAL AKUTT DØGNENHET"
                    }
                ],
                "masterIdentifier": {
                    "use": "usual",
                    "system": "urn:ietf:rfc:3986",
                    "value": "urn:uuid:F6F3031B-F561-4808-A88B-723AA832347B"
                },
                "identifier": [
                    {
                        "use": "official",
                        "system": "urn:ietf:rfc:3986",
                        "value": "urn:uuid:4f2f412e-69a2-423d-b90a-cb23edd0460a"
                    }
                ],
                "status": "current",
                "type": {
                    "coding": [
                        {
                            "system": "urn:oid:2.16.578.1.12.4.1.1.9602",
                            "code": "A03-2",
                            "display": "Epikrise"
                        }
                    ]
                },
                "category": [
                    {
                        "coding": [
                            {
                                "system": "urn:oid:2.16.578.1.12.4.1.1.9602",
                                "code": "A00-1",
                                "display": "Epikrise og sammenfatninger"
                            }
                        ]
                    }
                ],
                "subject": {
                    "reference": "urn:uuid:07792608-a74f-433a-bf2b-daeda73e0266"
                },
                "date": "2026-02-12T12:57:45.520994Z",
                "author": [
                    {
                        "reference": "#d8d68526-012d-45a2-b71e-616b7947f7db",
                        "type": "Practitioner"
                    },
                    {
                        "reference": "#b8785d81-030f-4ddf-a4b2-a8ff47cfd7d5",
                        "type": "PractitionerRole"
                    },
                    {
                        "reference": "#cd8890b5-353d-4bd3-b8d8-473cb8320d76",
                        "type": "Organization"
                    }
                ],
                "securityLabel": [
                    {
                        "coding": [
                            {
                                "system": "http://terminology.hl7.org/CodeSystem/v3-Confidentiality",
                                "code": "N",
                                "display": "normal"
                            },
                            {
                                "system": "urn:oid:2.16.578.1.12.4.1.1.9603",
                                "code": "N",
                                "display": "Normal"
                            }
                        ]
                    }
                ],
                "content": [
                    {
                        "attachment": {
                            "contentType": "application/xml",
                            "url": "urn:uuid:151a9944-3905-4107-affa-5c409380868e",
                            "size": 2951,
                            "hash": "/7Ddi52/orHzCvCMLxAHTFIHWRQ=",
                            "title": "Varm Ulv",
                            "creation": "2026-02-12T12:57:45.520994Z",
                            "extension": [
                                {
                                    "url": "https://profiles.ihe.net/ITI/MHD/StructureDefinition/ihe-homeCommunityId",
                                    "valueUri": "urn:oid:2.16.578.1.12.4.5.100.3.19"
                                }
                            ]
                        },
                        "format": {
                            "system": "http://www.kith.no/xmlstds/epikrise/2012-02-15",
                            "code": "Epikrise v1.2 (XML)"
                        }
                    }
                ],
                "context": {
                    "period": {
                        "start": "2024-03-19T16:37:31Z"
                    },
                    "facilityType": {
                        "coding": [
                            {
                                "system": "urn:oid:2.16.578.1.12.4.1.1.1303",
                                "code": "87.103",
                                "display": "Øyeblikkelig hjelp døgntilbud"
                            }
                        ]
                    },
                    "practiceSetting": {
                        "coding": [
                            {
                                "system": "urn:oid:2.16.578.1.12.4.1.1.8663",
                                "code": "KX05",
                                "display": "Øyeblikkelig hjelp døgntilbud (ØHD)"
                            }
                        ]
                    },
                    "sourcePatientInfo": {
                        "reference": "urn:uuid:07792608-a74f-433a-bf2b-daeda73e0266"
                    }
                }
            },
            "request": {
                "method": "POST",
                "url": "DocumentReference"
            }
        },
        {
            "fullUrl": "urn:uuid:151a9944-3905-4107-affa-5c409380868e",
            "resource": {
                "resourceType": "Binary",
                "id": "151a9944-3905-4107-affa-5c409380868e",
                "meta": {
                    "profile": [
                        "http://hl7.org/fhir/StructureDefinition/Binary"
                    ]
                },
                "contentType": "application/xml",
                "data": ""
            },
            "request": {
                "method": "POST",
                "url": "Binary"
            }
        }
    ]
}