{
  "resourceType": "Bundle",
  "id": "f268eac1-f1ef-48dd-a158-6f546d8655fd",
  "meta": {
    "profile": [
      "https://profiles.ihe.net/ITI/MHD/StructureDefinition/IHE.MHD.Comprehensive.ProvideBundle"
    ],
    "security": [
      {
        "system": "http://terminology.hl7.org/CodeSystem/v3-ActReason",
        "code": "HTEST"
      }
    ]
  },
  "type": "transaction",
  "timestamp": "2025-11-04T12:28:47.2706155+00:00",
  "entry": [
    {
      "fullUrl": "urn:uuid:c789f433-c357-40e5-9039-8099b0372226",
      "resource": {
        "resourceType": "List",
        "id": "c789f433-c357-40e5-9039-8099b0372226",
        "meta": {
          "profile": [
            "https://profiles.ihe.net/ITI/MHD/StructureDefinition/IHE.MHD.Comprehensive.SubmissionSet"
          ]
        },
        "text": {
          "status": "generated",
          "div": "<div xmlns=\"http://www.w3.org/1999/xhtml\">SubmissionSet Narrative</div>"
        },
        "contained": [
          {
            "resourceType": "Practitioner",
            "id": "544ae17b-6d9f-4510-afc8-ff3813056395",
            "name": [
              {
                "family": "GREVLING",
                "given": [
                  "KVART"
                ]
              }
            ]
          },
          {
            "resourceType": "Organization",
            "id": "c19f6364-378e-40c9-a195-bb38c28d36f9",
            "identifier": [
              {
                "system": "urn:oid:2.16.578.1.12.4.1.4.101",
                "value": "981275721"
              }
            ],
            "name": "STIFTELSEN BETANIEN HOSPITAL SKIEN"
          }
        ],
        "extension": [
          {
            "url": "https://profiles.ihe.net/ITI/MHD/StructureDefinition/ihe-designationType",
            "valueCodeableConcept": {
              "coding": [
                {
                  "system": "urn:oid:2.16.578.1.12.4.1.1.9602",
                  "code": "S02-2",
                  "display": "Systematiserte diagnostiske intervju"
                }
              ]
            }
          },
          {
            "url": "https://profiles.ihe.net/ITI/MHD/StructureDefinition/ihe-sourceId",
            "valueIdentifier": {
              "value": "urn:oid:2.16.578.1.12.4.5.100.3.15"
            }
          }
        ],
        "identifier": [
          {
            "use": "usual",
            "system": "urn:ietf:rfc:3986",
            "value": "urn:oid:2.25.50688331457208011505584935531480478771"
          },
          {
            "use": "official",
            "system": "urn:ietf:rfc:3986",
            "value": "urn:uuid:c789f433-c357-40e5-9039-8099b0372226"
          }
        ],
        "status": "current",
        "mode": "working",
        "title": "SubmissionSet-17855599120-11/04/2025 12:28:33",
        "code": {
          "coding": [
            {
              "system": "https://profiles.ihe.net/ITI/MHD/CodeSystem/MHDlistTypes",
              "code": "submissionset"
            }
          ]
        },
        "subject": {
          "reference": "urn:uuid:e4a94ee6-16b6-4db8-9129-e5710095e854"
        },
        "date": "2025-11-04T00:00:00Z",
        "source": {
          "extension": [
            {
              "url": "https://profiles.ihe.net/ITI/MHD/StructureDefinition/ihe-authorOrg",
              "valueReference": {
                "reference": "#c19f6364-378e-40c9-a195-bb38c28d36f9"
              }
            }
          ],
          "reference": "#544ae17b-6d9f-4510-afc8-ff3813056395"
        },
        "entry": [
          {
            "item": {
              "reference": "urn:uuid:33879047-0fde-4a3b-8f90-6990081d5919"
            }
          }
        ]
      },
      "request": {
        "method": "POST",
        "url": "List"
      }
    },
    {
      "fullUrl": "urn:uuid:e4a94ee6-16b6-4db8-9129-e5710095e854",
      "resource": {
        "resourceType": "Patient",
        "id": "e4a94ee6-16b6-4db8-9129-e5710095e854",
        "text": {
          "status": "extensions",
          "div": "<div xmlns=\"http://www.w3.org/1999/xhtml\">SubmissionSet with Patient</div>"
        },
        "identifier": [
          {
            "system": "urn:oid:2.16.578.1.12.4.1.4.1",
            "value": "17855599120"
          }
        ],
        "name": [
          {
            "family": "KLOKKE",
            "given": [
              "USNOBBET"
            ]
          }
        ],
        "gender": "unknown",
        "birthDate": "1955-05-17"
      },
      "request": {
        "method": "POST",
        "url": "Patient"
      }
    },
    {
      "fullUrl": "urn:uuid:0779697b-5f2a-4ba0-86dc-086e601ebe2a",
      "resource": {
        "resourceType": "Binary",
        "id": "0779697b-5f2a-4ba0-86dc-086e601ebe2a",
        "meta": {
          "profile": [
            "http://hl7.org/fhir/StructureDefinition/Binary"
          ]
        },
        "contentType": "application/xml",
        "data": ""
      },
      "request": {
        "method": "POST",
        "url": "Binary"
      }
    },
    {
      "fullUrl": "urn:uuid:33879047-0fde-4a3b-8f90-6990081d5919",
      "resource": {
        "resourceType": "DocumentReference",
        "id": "33879047-0fde-4a3b-8f90-6990081d5919",
        "meta": {
          "profile": [
            "https://profiles.ihe.net/ITI/MHD/StructureDefinition/IHE.MHD.Comprehensive.DocumentReference"
          ],
          "security": [
            {
              "system": "urn:oid:2.16.840.1.113883.5.25",
              "code": "N",
              "display": "Normal"
            }
          ]
        },
        "text": {
          "status": "generated",
          "div": "<div xmlns=\"http://www.w3.org/1999/xhtml\">Narrative for DocumentReference</div>"
        },
        "contained": [
          {
            "resourceType": "Patient",
            "id": "e4a94ee6-16b6-4db8-9129-e5710095e854",
            "text": {
              "status": "extensions",
              "div": "<div xmlns=\"http://www.w3.org/1999/xhtml\">SubmissionSet with Patient</div>"
            },
            "identifier": [
              {
                "system": "urn:oid:2.16.578.1.12.4.1.4.1",
                "value": "17855599120"
              }
            ],
            "name": [
              {
                "family": "KLOKKE",
                "given": [
                  "USNOBBET"
                ]
              }
            ],
            "gender": "unknown",
            "birthDate": "1955-05-17"
          },
          {
            "resourceType": "Practitioner",
            "id": "c809bb32-b2c1-4619-93ac-8204614086c3",
            "name": [
              {
                "family": "GREVLING",
                "given": [
                  "KVART"
                ]
              }
            ]
          },
          {
            "resourceType": "PractitionerRole",
            "id": "e90938c4-3c48-493a-81ae-497122bfebf0",
            "practitioner": {
              "reference": "#c809bb32-b2c1-4619-93ac-8204614086c3"
            },
            "organization": {
              "reference": "#361428e6-39ac-4605-a4e2-44a6a01f7c30"
            }
          },
          {
            "resourceType": "Organization",
            "id": "361428e6-39ac-4605-a4e2-44a6a01f7c30",
            "identifier": [
              {
                "system": "urn:oid:2.16.578.1.12.4.1.4.101",
                "value": "981275721"
              }
            ],
            "name": "STIFTELSEN BETANIEN HOSPITAL SKIEN"
          }
        ],
        "masterIdentifier": {
          "use": "usual",
          "system": "urn:ietf:rfc:3986",
          "value": "urn:uuid:33879047-0fde-4a3b-8f90-6990081d5919"
        },
        "status": "current",
        "type": {
          "coding": [
            {
              "system": "urn:oid:2.16.578.1.12.4.1.1.9602",
              "code": "S02-2",
              "display": "Systematiserte diagnostiske intervju"
            }
          ]
        },
        "category": [
          {
            "coding": [
              {
                "system": "urn:oid:2.16.578.1.12.4.1.1.9602",
                "code": "S00-1",
                "display": "Test og scoring"
              }
            ]
          }
        ],
        "subject": {
          "reference": "urn:uuid:e4a94ee6-16b6-4db8-9129-e5710095e854"
        },
        "date": "2025-11-04T12:28:50+00:00",
        "author": [
          {
            "reference": "#c809bb32-b2c1-4619-93ac-8204614086c3",
            "type": "Practitioner"
          },
          {
            "reference": "#e90938c4-3c48-493a-81ae-497122bfebf0",
            "type": "PractitionerRole"
          },
          {
            "reference": "#361428e6-39ac-4605-a4e2-44a6a01f7c30",
            "type": "Organization"
          }
        ],
        "securityLabel": [
          {
            "coding": [
              {
                "system": "urn:oid:2.16.840.1.113883.5.25",
                "code": "N",
                "display": "Normal"
              }
            ]
          }
        ],
        "content": [
          {
            "attachment": {
              "contentType": "application/xml",
              "url": "urn:uuid:0779697b-5f2a-4ba0-86dc-086e601ebe2a",
              "size": 80607,
              "hash": "T0N/V5fEq86RmjrIVWedoXypnrg=",
              "title": "XcaDS - Revurdering av diagnose og tiltak",
              "creation": "2025-11-04T12:28:50Z"
            },
            "format": {
              "system": "http://ihe.net/fhir/ihe.formatcode.fhir/CodeSystem/formatcode",
              "code": "urn:hl7-org:sdwg:ccda-nonXMLBody:2.1"
            }
          }
        ],
        "context": {
          "period": {
            "start": "2025-10-28T00:00:00Z",
            "end": "2025-10-29T00:00:00Z"
          },
          "facilityType": {
            "coding": [
              {
                "system": "urn:oid:2.16.578.1.12.4.1.1.1303",
                "code": "86.102",
                "display": "Somatiske spesialsykehus"
              }
            ]
          },
          "practiceSetting": {
            "coding": [
              {
                "system": "urn:oid:2.16.578.1.12.4.1.1.8653",
                "code": "6",
                "display": "Akuttmottak"
              }
            ]
          },
          "sourcePatientInfo": {
            "reference": "urn:uuid:e4a94ee6-16b6-4db8-9129-e5710095e854"
          }
        }
      },
      "request": {
        "method": "POST",
        "url": "DocumentReference"
      }
    }
  ]
}